File: doc/examples/KFe2As2-00838_fit2d.chi
C:\incoming\KFe2As2-00838.tif: 2-theta Scan
2-Theta Angle (Degrees)

       2048
 0.0307412  1589.01
 0.0717295  1595.14
 0.112718  1603.62
 0.153706  1654.79
 0.194694  1742.7
 0.235683  2198.45
 0.276671  3833.3
 0.317659  6212.44
 0.358648  8856.98
 0.399636  10908.3
 0.440624  11281.9
 0.481612  10832.8
 0.522601  10672.7
 0.563589  10738.5
 0.604577  10816.5
 0.645566  10840.3
 0.686554  10870.8
 0.727542  10899.1
 0.76853  11572.6
 0.809519  17554.7
 0.850507  48104.2
 0.891495  75864.5
 0.932484  52846.1
 0.973472  18481.2
 1.01446  10361.1
 1.05545  9170.55
 1.09644  8742.89
 1.13743  8437.94
 1.17841  8200.11
 1.2194  8027.3
 1.26039  7873.68
 1.30138  7612.75
 1.34237  7431.4
 1.38335  7273.36
 1.42434  7092.4
 1.46533  6952.56
 1.50632  6847.93
 1.54731  6898.25
 1.5883  8008.31
 1.62928  13385.5
 1.67027  18265.4
 1.71126  14653.2
 1.75225  9086.29
 1.79324  7702.32
 1.83423  7312.06
 1.87521  7180.76
 1.9162  7491.65
 1.95719  8329.82
 1.99818  12473.6
 2.03917  39404.7
 2.08016  88401.6
 2.12114  84614.7
 2.16213  35675.6
 2.20312  12663.9
 2.24411  12095.5
 2.2851  13257.8
 2.32609  10886.1
 2.36707  10801.5
 2.40806  20630.7
 2.44905  28796.4
 2.49004  20914.5
 2.53103  10482.7
 2.57202  8026.67
 2.613  7472.86
 2.65399  7508.41
 2.69498  9438.41
 2.73597  11674.4
 2.77696  11330.9
 2.81795  14369.8
 2.85893  35209.4
 2.89992  51903.7
 2.94091  35493.8
 2.9819  14999.4
 3.02289  12099.9
 3.06387  12484.5
 3.10486  9889.76
 3.14585  13881.9
 3.18684  31500.6
 3.22783  43514.4
 3.26882  31835.3
 3.3098  19402.5
 3.35079  17646.8
 3.39178  13996.7
 3.43277  13588.5
 3.47376  31991.6
 3.51475  56361.3
 3.55573  50271.4
 3.59672  26310.6
 3.63771  14228.1
 3.6787  9465.74
 3.71969  7561.42
 3.76068  9928.65
 3.80166  22334.5
 3.84265  34276.3
 3.88364  26887.3
 3.92463  12307
 3.96562  6593.17
 4.00661  5410.03
 4.04759  5065.94
 4.08858  4919.21
 4.12957  5005.92
 4.17056  5595.47
 4.21155  6717.23
 4.25254  7786.33
 4.29352  8713.59
 4.33451  8828.88
 4.3755  7394.59
 4.41649  7050.92
 4.45748  8800.38
 4.49847  11884.3
 4.53945  16152.6
 4.58044  16919.3
 4.62143  13015.6
 4.66242  9626.91
 4.70341  8753.84
 4.7444  12390.4
 4.78538  18573.7
 4.82637  18779.9
 4.86736  12527.1
 4.90835  7474.59
 4.94934  7127.11
 4.99033  9703.06
 5.03131  11156
 5.0723  9789.27
 5.11329  9253.42
 5.15428  11537.1
 5.19527  12206.6
 5.23625  9929.34
 5.27724  8407.49
 5.31823  9495.98
 5.35922  15223.4
 5.40021  20830
 5.4412  18445.1
 5.48218  14466.2
 5.52317  12712.6
 5.56416  9669.41
 5.60515  6739
 5.64614  6393.9
 5.68713  9414.61
 5.72811  17931.4
 5.7691  24777.2
 5.81009  21319.1
 5.85108  12573.3
 5.89207  8567.61
 5.93306  9864.53
 5.97404  11393.5
 6.01503  10399.4
 6.05602  9445.1
 6.09701  9565.04
 6.138  8376.62
 6.17899  6793.44
 6.21997  6918.65
 6.26096  7762.63
 6.30195  7688.11
 6.34294  7961.82
 6.38393  9339.26
 6.42492  10025.5
 6.4659  9066.28
 6.50689  7566.47
 6.54788  6864.58
 6.58887  7727.76
 6.62986  9555.74
 6.67084  10430.8
 6.71183  9406.28
 6.75282  8886.07
 6.79381  9276.63
 6.8348  8936.61
 6.87579  7776.42
 6.91677  6804.45
 6.95776  6116.98
 6.99875  6601.22
 7.03974  8143.43
 7.08073  8630.2
 7.12172  7657.78
 7.1627  7467.96
 7.20369  8476.15
 7.24468  8809.37
 7.28567  8549.5
 7.32666  9223.14
 7.36765  9628.2
 7.40863  8326.13
 7.44962  6403.5
 7.49061  5615.74
 7.5316  5605.73
 7.57259  5826.24
 7.61358  5987.06
 7.65456  5778.93
 7.69555  5515.5
 7.73654  5807.98
 7.77753  6448.33
 7.81852  6681.92
 7.85951  6318.87
 7.90049  5684.87
 7.94148  5298.44
 7.98247  6177.92
 8.02346  8701.02
 8.06445  10840.2
 8.10544  10912.1
 8.14642  9279.45
 8.18741  8044.44
 8.2284  7613.26
 8.26939  7047.6
 8.31038  6604.56
 8.35137  6847.2
 8.39235  7798.6
 8.43334  8628.94
 8.47433  8328.27
 8.51532  7184.21
 8.55631  6325.69
 8.59729  6453.31
 8.63828  7249
 8.67927  7545.81
 8.72026  7095.73
 8.76125  6546.28
 8.80224  6291.95
 8.84322  5839.4
 8.88421  5202.41
 8.9252  5095.04
 8.96619  5561.13
 9.00718  5867.7
 9.04817  5717.65
 9.08915  5340.97
 9.13014  5083.63
 9.17113  5057.35
 9.21212  5251.16
 9.25311  5464.83
 9.2941  5464.03
 9.33508  5100.72
 9.37607  4821.81
 9.41706  4996.99
 9.45805  5493.29
 9.49904  6109.49
 9.54003  6538.1
 9.58101  6514.01
 9.622  6113.2
 9.66299  5545.83
 9.70398  5268.87
 9.74497  5523.18
 9.78596  5720.21
 9.82694  5737.45
 9.86793  5556.55
 9.90892  5289.98
 9.94991  5225.3
 9.9909  5274.46
 10.0319  5386.97
 10.0729  5527.51
 10.1139  5613.82
 10.1548  5591.13
 10.1958  5424.89
 10.2368  5410.56
 10.2778  5647.75
 10.3188  5826.11
 10.3598  5873.21
 10.4008  5629.25
 10.4418  5069.44
 10.4828  4604.24
 10.5237  4429.46
 10.5647  4324.46
 10.6057  4319.56
 10.6467  4306.3
 10.6877  4261.27
 10.7287  4334.14
 10.7697  4537.66
 10.8107  4782.17
 10.8517  5054.05
 10.8926  5213.9
 10.9336  5209.57
 10.9746  5234.78
 11.0156  5353.45
 11.0566  5427.87
 11.0976  5374.82
 11.1386  5169.62
 11.1796  4859.32
 11.2205  4639.16
 11.2615  4623.14
 11.3025  4681.01
 11.3435  4777.42
 11.3845  4853.15
 11.4255  4929.15
 11.4665  5163.82
 11.5075  5369.14
 11.5485  5413.99
 11.5894  5319.96
 11.6304  5116.77
 11.6714  4919.42
 11.7124  4836.9
 11.7534  4869.06
 11.7944  4884.39
 11.8354  4811.4
 11.8764  4640.8
 11.9173  4442.43
 11.9583  4205.28
 11.9993  3955.75
 12.0403  3786.45
 12.0813  3772.3
 12.1223  3834.13
 12.1633  3883.61
 12.2043  3944.7
 12.2453  3989
 12.2862  3965.33
 12.3272  3963.82
 12.3682  4046.83
 12.4092  4105.55
 12.4502  4152.16
 12.4912  4218.82
 12.5322  4245.07
 12.5732  4190.62
 12.6141  4152.66
 12.6551  4198.79
 12.6961  4243.76
 12.7371  4246.64
 12.7781  4270.24
 12.8191  4257.39
 12.8601  4230.74
 12.9011  4260.75
 12.9421  4321.62
 12.983  4363.09
 13.024  4374.43
 13.065  4351.54
 13.106  4318.3
 13.147  4221.25
 13.188  4094.08
 13.229  4008.33
 13.27  3993.16
 13.3109  4018.76
 13.3519  4021.16
 13.3929  4024.47
 13.4339  4053.66
 13.4749  4097.06
 13.5159  4145.28
 13.5569  4169.46
 13.5979  4158.08
 13.6389  4122.28
 13.6798  4091.05
 13.7208  4074.81
 13.7618  4033.87
 13.8028  3992.19
 13.8438  3988.89
 13.8848  4020.58
 13.9258  4030.75
 13.9668  3974.71
 14.0077  3935.17
 14.0487  3961.45
 14.0897  3989.08
 14.1307  3979.83
 14.1717  3958.21
 14.2127  3949.87
 14.2537  3943.3
 14.2947  3903.38
 14.3357  3850.16
 14.3766  3812.75
 14.4176  3756.48
 14.4586  3690.2
 14.4996  3654.33
 14.5406  3649.7
 14.5816  3658.86
 14.6226  3666.3
 14.6636  3655.81
 14.7046  3635.22
 14.7455  3639.5
 14.7865  3677.29
 14.8275  3698.4
 14.8685  3670.8
 14.9095  3633.54
 14.9505  3640.19
 14.9915  3685.25
 15.0325  3695.26
 15.0734  3655.72
 15.1144  3638.83
 15.1554  3656.54
 15.1964  3667.51
 15.2374  3632.39
 15.2784  3595.17
 15.3194  3596.87
 15.3604  3601.34
 15.4014  3556.74
 15.4423  3519.55
 15.4833  3518.28
 15.5243  3528.78
 15.5653  3528.52
 15.6063  3535.97
 15.6473  3549.57
 15.6883  3549.71
 15.7293  3529.78
 15.7702  3520.71
 15.8112  3530.41
 15.8522  3519.49
 15.8932  3494.75
 15.9342  3502.5
 15.9752  3514.1
 16.0162  3539.08
 16.0572  3558.89
 16.0982  3566.91
 16.1391  3577.2
 16.1801  3598.58
 16.2211  3604.58
 16.2621  3578.59
 16.3031  3544.35
 16.3441  3519
 16.3851  3499.78
 16.4261  3498.22
 16.467  3506.18
 16.508  3481.49
 16.549  3445.82
 16.59  3431.36
 16.631  3444.96
 16.672  3464.1
 16.713  3457.85
 16.754  3439.2
 16.795  3432.03
 16.8359  3439.14
 16.8769  3452.74
 16.9179  3448.4
 16.9589  3426.97
 16.9999  3406.64
 17.0409  3397.59
 17.0819  3378.31
 17.1229  3349.33
 17.1638  3310.95
 17.2048  3286.48
 17.2458  3257.33
 17.2868  3232.45
 17.3278  3206.71
 17.3688  3193.05
 17.4098  3186.2
 17.4508  3189.11
 17.4918  3192.05
 17.5327  3186.62
 17.5737  3173.51
 17.6147  3173.69
 17.6557  3194.44
 17.6967  3201.64
 17.7377  3199.75
 17.7787  3204.14
 17.8197  3210.64
 17.8606  3210.21
 17.9016  3210.14
 17.9426  3228.69
 17.9836  3234.54
 18.0246  3233.68
 18.0656  3228.76
 18.1066  3225.95
 18.1476  3214.38
 18.1886  3208.97
 18.2295  3205.41
 18.2705  3202.97
 18.3115  3206.28
 18.3525  3204.11
 18.3935  3206.92
 18.4345  3204.24
 18.4755  3197.25
 18.5165  3194.59
 18.5574  3193.54
 18.5984  3195.9
 18.6394  3203.11
 18.6804  3205.01
 18.7214  3189.91
 18.7624  3165.35
 18.8034  3153.09
 18.8444  3149.11
 18.8854  3143.52
 18.9263  3139.66
 18.9673  3131.7
 19.0083  3117.01
 19.0493  3106.38
 19.0903  3100.26
 19.1313  3100.45
 19.1723  3093.36
 19.2133  3087.74
 19.2543  3084.54
 19.2952  3076.86
 19.3362  3073.36
 19.3772  3075.05
 19.4182  3075.71
 19.4592  3079.88
 19.5002  3079.12
 19.5412  3070.18
 19.5822  3065.38
 19.6231  3063.73
 19.6641  3057.82
 19.7051  3052.03
 19.7461  3040.47
 19.7871  3029.06
 19.8281  3015.7
 19.8691  2992.54
 19.9101  2978.59
 19.9511  2965.97
 19.992  2956.5
 20.033  2941.94
 20.074  2928.76
 20.115  2913.79
 20.156  2906.12
 20.197  2911.38
 20.238  2916.77
 20.279  2917.8
 20.3199  2919.45
 20.3609  2919.98
 20.4019  2916.47
 20.4429  2917.29
 20.4839  2918.06
 20.5249  2924.59
 20.5659  2932.12
 20.6069  2935.8
 20.6479  2933.4
 20.6888  2926.24
 20.7298  2920.51
 20.7708  2920.72
 20.8118  2919.42
 20.8528  2916.94
 20.8938  2919.86
 20.9348  2915.91
 20.9758  2913.65
 21.0167  2916.5
 21.0577  2914.84
 21.0987  2920.53
 21.1397  2920.07
 21.1807  2916.19
 21.2217  2910.43
 21.2627  2907.33
 21.3037  2900.31
 21.3447  2895.07
 21.3856  2890.32
 21.4266  2883.03
 21.4676  2880.66
 21.5086  2875.91
 21.5496  2867.93
 21.5906  2864.18
 21.6316  2857.95
 21.6726  2846.11
 21.7135  2836.46
 21.7545  2826.28
 21.7955  2822.96
 21.8365  2821.97
 21.8775  2822.31
 21.9185  2811.81
 21.9595  2792.38
 22.0005  2765.67
 22.0415  2751.86
 22.0824  2733.88
 22.1234  2712.58
 22.1644  2696.44
 22.2054  2713.7
 22.2464  2723.06
 22.2874  2729.07
 22.3284  2728.02
 22.3694  2726.79
 22.4103  2728.14
 22.4513  2726.46
 22.4923  2729.81
 22.5333  2728.12
 22.5743  2728.02
 22.6153  2724.65
 22.6563  2721.95
 22.6973  2716.76
 22.7383  2710.52
 22.7792  2708.52
 22.8202  2703.81
 22.8612  2702
 22.9022  2700.74
 22.9432  2696.35
 22.9842  2693.82
 23.0252  2693.22
 23.0662  2696.6
 23.1072  2692.91
 23.1481  2689.55
 23.1891  2690.02
 23.2301  2688.99
 23.2711  2673.11
 23.3121  2677.12
 23.3531  2681.5
 23.3941  2680.69
 23.4351  2678.36
 23.476  2683.9
 23.517  2682.21
 23.558  2682.9
 23.599  2681.29
 23.64  2675.67
 23.681  2674.39
 23.722  2673.47
 23.763  2673.78
 23.804  2675.41
 23.8449  2674.07
 23.8859  2669.49
 23.9269  2665.39
 23.9679  2661.49
 24.0089  2661.59
 24.0499  2660.49
 24.0909  2657.44
 24.1319  2657.72
 24.1728  2650.02
 24.2138  2650.78
 24.2548  2644.78
 24.2958  2641.64
 24.3368  2640.06
 24.3778  2636
 24.4188  2634.51
 24.4598  2629.11
 24.5008  2627.18
 24.5417  2621.75
 24.5827  2618.98
 24.6237  2614.55
 24.6647  2611.95
 24.7057  2607.32
 24.7467  2600.99
 24.7877  2599.34
 24.8287  2595.39
 24.8696  2593.98
 24.9106  2590.08
 24.9516  2589.37
 24.9926  2586.98
 25.0336  2584.91
 25.0746  2578.23
 25.1156  2573.48
 25.1566  2571.47
 25.1976  2569.48
 25.2385  2567.28
 25.2795  2563.73
 25.3205  2561.87
 25.3615  2558.63
 25.4025  2556.65
 25.4435  2553.6
 25.4845  2551.96
 25.5255  2549.42
 25.5664  2547.92
 25.6074  2543.51
 25.6484  2542.64
 25.6894  2540.83
 25.7304  2542.57
 25.7714  2538.6
 25.8124  2534.12
 25.8534  2532.34
 25.8944  2535.15
 25.9353  2533.71
 25.9763  2532.37
 26.0173  2531.5
 26.0583  2528.74
 26.0993  2527.72
 26.1403  2527.58
 26.1813  2523.49
 26.2223  2524.83
 26.2632  2523.1
 26.3042  2522.67
 26.3452  2520.49
 26.3862  2516.7
 26.4272  2518.48
 26.4682  2513.12
 26.5092  2509.87
 26.5502  2509.89
 26.5912  2506.61
 26.6321  2501.92
 26.6731  2499.71
 26.7141  2498.38
 26.7551  2496.72
 26.7961  2494.04
 26.8371  2489.72
 26.8781  2488.99
 26.9191  2487.7
 26.9601  2483.32
 27.001  2482.93
 27.042  2480.05
 27.083  2475.66
 27.124  2474.55
 27.165  2469.43
 27.206  2465.29
 27.247  2466.53
 27.288  2465.63
 27.3289  2460.33
 27.3699  2457.06
 27.4109  2453.2
 27.4519  2455.68
 27.4929  2453.54
 27.5339  2453.44
 27.5749  2449.34
 27.6159  2446.98
 27.6569  2446.9
 27.6978  2443.98
 27.7388  2439.82
 27.7798  2438.28
 27.8208  2434.4
 27.8618  2431.07
 27.9028  2428.37
 27.9438  2427
 27.9848  2425.09
 28.0257  2423.88
 28.0667  2423.64
 28.1077  2415.53
 28.1487  2406.04
 28.1897  2390.6
 28.2307  2376.14
 28.2717  2359.12
 28.3127  2336.38
 28.3537  2316.11
 28.3946  2299.85
 28.4356  2329.45
 28.4766  2339.65
 28.5176  2344.99
 28.5586  2349.49
 28.5996  2351.54
 28.6406  2355.28
 28.6816  2353.84
 28.7225  2352.76
 28.7635  2356.31
 28.8045  2357.31
 28.8455  2356.5
 28.8865  2357.57
 28.9275  2356.23
 28.9685  2361.38
 29.0095  2356.01
 29.0505  2356.85
 29.0914  2355.27
 29.1324  2351.08
 29.1734  2354.48
 29.2144  2352.97
 29.2554  2351.43
 29.2964  2351.22
 29.3374  2345.36
 29.3784  2350.41
 29.4193  2344.61
 29.4603  2337.38
 29.5013  2325.9
 29.5423  2303.53
 29.5833  2272.42
 29.6243  2297.92
 29.6653  2307.45
 29.7063  2309.14
 29.7473  2309.71
 29.7882  2314.49
 29.8292  2313.47
 29.8702  2306.9
 29.9112  2305.33
 29.9522  2305.99
 29.9932  2305.92
 30.0342  2305.9
 30.0752  2306.72
 30.1162  2299.5
 30.1571  2300.17
 30.1981  2296.9
 30.2391  2298.18
 30.2801  2295.77
 30.3211  2299.01
 30.3621  2295.45
 30.4031  2296.89
 30.4441  2294.36
 30.485  2293.68
 30.526  2287.27
 30.567  2289.13
 30.608  2285.08
 30.649  2283.83
 30.69  2285.79
 30.731  2280.34
 30.772  2282.07
 30.813  2277.56
 30.8539  2279.07
 30.8949  2275.79
 30.9359  2274.54
 30.9769  2273.62
 31.0179  2273.29
 31.0589  2272.96
 31.0999  2276.29
 31.1409  2269.46
 31.1818  2270.2
 31.2228  2266.57
 31.2638  2265.39
 31.3048  2265.07
 31.3458  2264.62
 31.3868  2261.07
 31.4278  2263.69
 31.4688  2259.36
 31.5098  2259.79
 31.5507  2258.94
 31.5917  2254.55
 31.6327  2254.82
 31.6737  2256.01
 31.7147  2255.78
 31.7557  2257.55
 31.7967  2251.26
 31.8377  2252.53
 31.8786  2245.14
 31.9196  2229.99
 31.9606  2232.52
 32.0016  2240.38
 32.0426  2240.19
 32.0836  2237.49
 32.1246  2241.69
 32.1656  2239.66
 32.2066  2233.89
 32.2475  2233.91
 32.2885  2235.81
 32.3295  2232.48
 32.3705  2230.43
 32.4115  2227.41
 32.4525  2233.17
 32.4935  2229.07
 32.5345  2225.46
 32.5754  2227.27
 32.6164  2228.96
 32.6574  2229.6
 32.6984  2225.73
 32.7394  2225.68
 32.7804  2228.13
 32.8214  2231.58
 32.8624  2225.66
 32.9034  2223.77
 32.9443  2228.27
 32.9853  2231.5
 33.0263  2225.39
 33.0673  2227.15
 33.1083  2227.56
 33.1493  2231.41
 33.1903  2232.1
 33.2313  2227.07
 33.2722  2227.32
 33.3132  2226.91
 33.3542  2227.01
 33.3952  2227.72
 33.4362  2226.63
 33.4772  2226.41
 33.5182  2227.69
 33.5592  2224.8
 33.6002  2224.74
 33.6411  2225.89
 33.6821  2223.1
 33.7231  2219.58
 33.7641  2220.78
 33.8051  2225.96
 33.8461  2228.5
 33.8871  2225.23
 33.9281  2231.29
 33.969  2227.94
 34.01  2237.55
 34.051  2231.37
 34.092  2236.26
 34.133  2239.04
 34.174  2238.48
 34.215  2236.78
 34.256  2234.99
 34.297  2241.6
 34.3379  2238.4
 34.3789  2235.98
 34.4199  2235.35
 34.4609  2230.52
 34.5019  2229.62
 34.5429  2232.07
 34.5839  2229.84
 34.6249  2221.52
 34.6658  2208.48
 34.7068  2134.41
 34.7478  2117.43
 34.7888  2098.07
 34.8298  2127.43
 34.8708  2140.05
 34.9118  2145.08
 34.9528  2147.98
 34.9938  2154
 35.0347  2158.03
 35.0757  2157.43
 35.1167  2166.78
 35.1577  2164.99
 35.1987  2171.64
 35.2397  2169.29
 35.2807  2171.02
 35.3217  2171.58
 35.3627  2169.73
 35.4036  2163.82
 35.4446  2164.56
 35.4856  2166.43
 35.5266  2166.71
 35.5676  2164.81
 35.6086  2158.55
 35.6496  2156.66
 35.6906  2158.04
 35.7315  2158.04
 35.7725  2160.67
 35.8135  2155.29
 35.8545  2156.59
 35.8955  2153.43
 35.9365  2156.32
 35.9775  2150.2
 36.0185  2154.96
 36.0595  2145.47
 36.1004  2140.56
 36.1414  2148.77
 36.1824  2149.69
 36.2234  2149.19
 36.2644  2144.27
 36.3054  2143.53
 36.3464  2137.1
 36.3874  2141.98
 36.4283  2137.86
 36.4693  2129.8
 36.5103  2134.32
 36.5513  2129.63
 36.5923  2130.66
 36.6333  2129.39
 36.6743  2127.14
 36.7153  2129.26
 36.7563  2129.27
 36.7972  2126.62
 36.8382  2124.76
 36.8792  2123.29
 36.9202  2114.35
 36.9612  2118.49
 37.0022  2118.69
 37.0432  2121.49
 37.0842  2117.58
 37.1251  2115.66
 37.1661  2117.02
 37.2071  2114.51
 37.2481  2117.44
 37.2891  2121.15
 37.3301  2117.93
 37.3711  2111.12
 37.4121  2105.29
 37.4531  2108.15
 37.494  2099.75
 37.535  2103.55
 37.576  2104.19
 37.617  2097.88
 37.658  2098.53
 37.699  2096.99
 37.74  2094.75
 37.781  2096.21
 37.8219  2091.2
 37.8629  2092.8
 37.9039  2084.77
 37.9449  2093.32
 37.9859  2088.96
 38.0269  2088.71
 38.0679  2083.6
 38.1089  2083.51
 38.1499  2080.29
 38.1908  2085.1
 38.2318  2077.63
 38.2728  2075.82
 38.3138  2074.45
 38.3548  2071.62
 38.3958  2068.42
 38.4368  2077.55
 38.4778  2071.55
 38.5187  2073.18
 38.5597  2074.52
 38.6007  2072.12
 38.6417  2040.84
 38.6827  2063.07
 38.7237  2062.55
 38.7647  2061.03
 38.8057  2050.77
 38.8467  2052.96
 38.8876  2050.6
 38.9286  2055.37
 38.9696  2059.11
 39.0106  2049.94
 39.0516  2049.64
 39.0926  2055.6
 39.1336  2050.24
 39.1746  2042.29
 39.2155  2036.62
 39.2565  2039.65
 39.2975  2044.35
 39.3385  2035.32
 39.3795  2021.44
 39.4205  2036.38
 39.4615  2036.04
 39.5025  2035.06
 39.5435  2022.12
 39.5844  2016.95
 39.6254  2020.81
 39.6664  2013.61
 39.7074  2003.98
 39.7484  2016.66
 39.7894  2001.57
 39.8304  1996.06
 39.8714  1988.26
 39.9124  1984.98
 39.9533  1991.9
 39.9943  1995.29
 40.0353  1979.1
 40.0763  1974.7
 40.1173  1957.51
 40.1583  1955.67
 40.1993  1951.03
 40.2403  1941.32
 40.2812  1934.49
 40.3222  1932.02
 40.3632  1922.03
 40.4042  1918.39
 40.4452  1913.88
 40.4862  1911.32
 40.5272  1889.49
 40.5682  1865.93
 40.6092  1865.36
 40.6501  1859.99
 40.6911  1837.49
 40.7321  1834.63
 40.7731  1803.07
 40.8141  1772.59
 40.8551  1779.02
 40.8961  1751.11
 40.9371  1816.21
 40.978  1837.64
 41.019  1914.97
 41.06  1978.25
 41.101  1968.8
 41.142  1957.23
 41.183  1927.99
 41.224  1911.06
 41.265  1914.37
 41.306  1888.27
 41.3469  1869.4
 41.3879  1864.9
 41.4289  1803.99
 41.4699  1805.82
 41.5109  1738.88
 41.5519  1733.82
 41.5929  1634.53
 41.6339  1591.49
 41.6748  1519.4
 41.7158  1354.41
 41.7568  1083.48
 41.7978  803.275
 41.8388  564.055
 41.8798  430.071
 41.9208  164.285
 41.9618 -1.17926