File: doc/examples/KFe2As2-00838_fit2d_corr_on.chi
D:\workspace\KFe2As2-00838.tif: 2-theta Scan
2-Theta Angle (Degrees)

       1662
 0.037871  1602.63
 0.0883656  1588.26
 0.13886  1620.37
 0.189355  1699.31
 0.239849  2058.83
 0.290344  4190.02
 0.340839  7778.03
 0.391333  10688.3
 0.441828  11295.6
 0.492323  10761.9
 0.542817  10720.3
 0.593312  10815.3
 0.643807  10843.8
 0.694301  10875.4
 0.744796  11059.6
 0.79529  14194.8
 0.845785  44654.4
 0.89628  72627
 0.946774  39529.8
 0.997269  12106.2
 1.04776  9290.33
 1.09826  8725.54
 1.14875  8361.49
 1.19925  8113.11
 1.24974  7909.24
 1.30024  7633.03
 1.35073  7390.21
 1.40123  7184.93
 1.45172  6995.8
 1.50222  6853.86
 1.55271  6927.19
 1.6032  9306.2
 1.6537  17201.2
 1.70419  15904.8
 1.75469  8796.88
 1.80518  7551.98
 1.85568  7191.93
 1.90617  7384.38
 1.95667  8291.68
 2.00716  15166.9
 2.05766  63166.4
 2.10815  93476.8
 2.15865  39976.4
 2.20914  11753.2
 2.25963  12950.3
 2.31013  12086.7
 2.36062  10122
 2.41112  21623.5
 2.46161  28025.5
 2.51211  14309.2
 2.5626  8135.44
 2.6131  7530.47
 2.66359  7812.51
 2.71409  10498.2
 2.76458  11641.6
 2.81508  13833.5
 2.86557  39488.7
 2.91607  48731.2
 2.96656  20591.2
 3.01705  12729.6
 3.06755  11586.8
 3.11804  9857.33
 3.16854  22117
 3.21903  43011.6
 3.26953  31673.1
 3.32002  18393.5
 3.37052  16318.8
 3.42101  12505.9
 3.47151  30691.4
 3.522  56786.6
 3.5725  40736.9
 3.62299  17244.8
 3.67348  9977.99
 3.72398  7520.91
 3.77447  12764.2
 3.82497  30786.2
 3.87546  30052
 3.92596  11830.2
 3.97645  6084.8
 4.02695  5192.9
 4.07744  4946.45
 4.12794  4996.34
 4.17843  5782.72
 4.22893  7208.56
 4.27942  8401.41
 4.32991  8821.84
 4.38041  7375.31
 4.4309  7481.3
 4.4814  10265.5
 4.53189  15448.2
 4.58239  16913.4
 4.63288  11807.9
 4.68338  8836.91
 4.73387  11007.2
 4.78437  18308.1
 4.83486  17821.8
 4.88536  9814.54
 4.93585  6774.82
 4.98634  9415.06
 5.03684  11101.4
 5.08733  9262.1
 5.13783  10526.2
 5.18832  12281.4
 5.23882  9866.33
 5.28931  8451.61
 5.33981  11870
 5.3903  19894.4
 5.4408  18854.9
 5.49129  13885.2
 5.54179  11569
 5.59228  7445.23
 5.64278  6364.32
 5.69327  10414.3
 5.74376  21275
 5.79426  23858.9
 5.84475  13824.4
 5.89525  8563.42
 5.94574  10528.8
 5.99624  11106
 6.04673  9480.84
 6.09723  9544.17
 6.14772  7963.52
 6.19822  6627.16
 6.24871  7542.05
 6.29921  7745.94
 6.3497  8133.33
 6.40019  9804.04
 6.45069  9533.81
 6.50118  7782.57
 6.55168  6897.53
 6.60217  8285.06
 6.65267  10265
 6.70316  9692.92
 6.75366  8882.09
 6.80415  9300.44
 6.85465  8394.17
 6.90514  7074.27
 6.95564  6164.1
 7.00613  6837.76
 7.05662  8540.82
 7.10712  8064.26
 7.15761  7411.91
 7.20811  8541.39
 7.2586  8719.79
 7.3091  8820.45
 7.35959  9625
 7.41009  8281.6
 7.46058  6084.39
 7.51108  5570.37
 7.56157  5761.19
 7.61207  5979.04
 7.66256  5721.8
 7.71305  5555.78
 7.76355  6241.72
 7.81404  6676.55
 7.86454  6240.28
 7.91503  5487.83
 7.96553  5613.01
 8.01602  8181.92
 8.06652  10867.9
 8.11701  10534
 8.16751  8497.71
 8.218  7699.02
 8.2685  7074.67
 8.31899  6612.7
 8.36948  7204.97
 8.41998  8437.62
 8.47047  8374.14
 8.52097  7035.02
 8.57146  6290.87
 8.62196  6908.84
 8.67245  7522.18
 8.72295  7077.17
 8.77344  6449.38
 8.82394  6091.27
 8.87443  5351.39
 8.92493  5110.62
 8.97542  5647.2
 9.02592  5846.03
 9.07641  5461.01
 9.1269  5094.4
 9.1774  5082.74
 9.22789  5333.53
 9.27839  5505.08
 9.32888  5168.02
 9.37938  4837.02
 9.42987  5126.27
 9.48037  5820.49
 9.53086  6484.95
 9.58136  6492.17
 9.63185  5979.85
 9.68235  5361.16
 9.73284  5428.1
 9.78333  5694.16
 9.83383  5713.47
 9.88432  5445.04
 9.93482  5230.34
 9.98531  5273.16
 10.0358  5391.67
 10.0863  5578.24
 10.1368  5633.39
 10.1873  5446.5
 10.2378  5417.71
 10.2883  5701.36
 10.3388  5863.24
 10.3893  5724.46
 10.4398  5108.03
 10.4903  4556.82
 10.5408  4385.16
 10.5912  4321.55
 10.6417  4304.51
 10.6922  4265.84
 10.7427  4405.51
 10.7932  4670.4
 10.8437  4995.85
 10.8942  5205.73
 10.9447  5215.57
 10.9952  5297.67
 11.0457  5415.5
 11.0962  5373.94
 11.1467  5102.39
 11.1972  4746.9
 11.2477  4621.8
 11.2982  4669.3
 11.3487  4786.96
 11.3992  4879.31
 11.4497  5051.26
 11.5002  5340.34
 11.5506  5403.64
 11.6011  5260.48
 11.6516  5018.34
 11.7021  4840.42
 11.7526  4860.87
 11.8031  4876.51
 11.8536  4739.6
 11.9041  4518.63
 11.9546  4230.92
 12.0051  3926.26
 12.0556  3771.46
 12.1061  3812.01
 12.1566  3870.75
 12.2071  3942.96
 12.2576  3989.3
 12.3081  3963.05
 12.3586  4024.11
 12.4091  4105.52
 12.4596  4159.26
 12.51  4243.01
 12.5605  4209.14
 12.611  4152.19
 12.6615  4206.09
 12.712  4249.59
 12.7625  4266.42
 12.813  4256.51
 12.8635  4226.89
 12.914  4291.94
 12.9645  4350.77
 13.015  4369.82
 13.0655  4341.65
 13.116  4296.74
 13.1665  4163.92
 13.217  4031.01
 13.2675  3993.46
 13.318  4020.39
 13.3685  4017.79
 13.4189  4042.03
 13.4694  4090.85
 13.5199  4150.64
 13.5704  4170.86
 13.6209  4137.25
 13.6714  4097.27
 13.7219  4073.02
 13.7724  4020.57
 13.8229  3981.29
 13.8734  4009.48
 13.9239  4032.06
 13.9744  3964.9
 14.0249  3939.72
 14.0754  3983.42
 14.1259  3982.08
 14.1764  3955.4
 14.2269  3944.8
 14.2774  3925.67
 14.3279  3863.61
 14.3783  3811.6
 14.4288  3734.2
 14.4793  3665.89
 14.5298  3654.07
 14.5803  3660.66
 14.6308  3666.89
 14.6813  3643.77
 14.7318  3635.77
 14.7823  3671.57
 14.8328  3696.83
 14.8833  3655.13
 14.9338  3628.65
 14.9843  3676.55
 15.0348  3695.63
 15.0853  3649.77
 15.1358  3645.57
 15.1863  3661.76
 15.2368  3633.97
 15.2873  3593.24
 15.3377  3601.76
 15.3882  3575.35
 15.4387  3524.02
 15.4892  3518.75
 15.5397  3529.65
 15.5902  3531.98
 15.6407  3545.03
 15.6912  3547.91
 15.7417  3526.09
 15.7922  3526.59
 15.8427  3524.2
 15.8932  3498.32
 15.9437  3507.8
 15.9942  3521.1
 16.0447  3552.57
 16.0952  3567.45
 16.1457  3581.6
 16.1962  3601.75
 16.2466  3588.21
 16.2971  3547.85
 16.3476  3517.46
 16.3981  3500.78
 16.4486  3505.62
 16.4991  3487.48
 16.5496  3445.44
 16.6001  3432.22
 16.6506  3455.07
 16.7011  3461.13
 16.7516  3443.89
 16.8021  3430.8
 16.8526  3443.94
 16.9031  3452.39
 16.9536  3430.33
 17.0041  3405.57
 17.0546  3389.87
 17.1051  3363.02
 17.1556  3320.01
 17.206  3285.04
 17.2565  3251
 17.307  3219.15
 17.3575  3199.18
 17.408  3187.77
 17.4585  3189.38
 17.509  3190.53
 17.5595  3177.82
 17.61  3173.11
 17.6605  3197.08
 17.711  3200.35
 17.7615  3201.82
 17.812  3208.2
 17.8625  3210.71
 17.913  3214.9
 17.9635  3232.62
 18.014  3236.21
 18.0645  3226.09
 18.1149  3223.27
 18.1654  3210.89
 18.2159  3205.19
 18.2664  3202.98
 18.3169  3207.23
 18.3674  3207.01
 18.4179  3207.1
 18.4684  3197.09
 18.5189  3194.27
 18.5694  3193.78
 18.6199  3197.5
 18.6704  3205.94
 18.7209  3189.24
 18.7714  3162.82
 18.8219  3151.63
 18.8724  3143.78
 18.9229  3138.57
 18.9734  3130.15
 19.0239  3112.07
 19.0743  3104.1
 19.1248  3100.49
 19.1753  3094.14
 19.2258  3085.56
 19.2763  3080.01
 19.3268  3074.93
 19.3773  3075.54
 19.4278  3077.39
 19.4783  3080.38
 19.5288  3073.65
 19.5793  3065.53
 19.6298  3063.27
 19.6803  3055.28
 19.7308  3044.7
 19.7813  3030.13
 19.8318  3012.03
 19.8823  2988.05
 19.9328  2972.14
 19.9833  2958.28
 20.0337  2942.23
 20.0842  2925.15
 20.1347  2908.61
 20.1852  2910.07
 20.2357  2915.94
 20.2862  2919.29
 20.3367  2919.36
 20.3872  2916.97
 20.4377  2917.7
 20.4882  2918.46
 20.5387  2927.05
 20.5892  2933.2
 20.6397  2933.2
 20.6902  2927.24
 20.7407  2921.02
 20.7912  2921.54
 20.8417  2916.64
 20.8922  2918.17
 20.9426  2915.57
 20.9931  2912.77
 21.0436  2916.68
 21.0941  2920.26
 21.1446  2919.87
 21.1951  2913.83
 21.2456  2908.53
 21.2961  2900.56
 21.3466  2894.26
 21.3971  2888.03
 21.4476  2881.39
 21.4981  2876.48
 21.5486  2869.74
 21.5991  2863.48
 21.6496  2851.37
 21.7001  2840.4
 21.7506  2828.54
 21.8011  2821.51
 21.8516  2821.92
 21.902  2820.45
 21.9525  2800.47
 22.003  2769.86
 22.0535  2749.48
 22.104  2727.23
 22.1545  2705.68
 22.205  2700.63
 22.2555  2721.34
 22.306  2725.52
 22.3565  2725.58
 22.407  2727.1
 22.4575  2727.3
 22.508  2727.26
 22.5585  2727.12
 22.609  2723.96
 22.6595  2720.03
 22.71  2714.29
 22.7605  2708.87
 22.8109  2702.84
 22.8614  2700.54
 22.9119  2699.53
 22.9624  2695.23
 23.0129  2691.8
 23.0634  2696.56
 23.1139  2692.13
 23.1644  2688.06
 23.2149  2689.23
 23.2654  2664.92
 23.3159  2677.16
 23.3664  2683.27
 23.4169  2679.43
 23.4674  2682.05
 23.5179  2681.65
 23.5684  2684.25
 23.6189  2676.66
 23.6694  2674.56
 23.7199  2673.06
 23.7703  2675
 23.8208  2674.73
 23.8713  2670.81
 23.9218  2666.13
 23.9723  2661.17
 24.0228  2661.14
 24.0733  2656.51
 24.1238  2657.84
 24.1743  2650.76
 24.2248  2648.4
 24.2753  2642.59
 24.3258  2639.09
 24.3763  2635.47
 24.4268  2632.07
 24.4773  2629.64
 24.5278  2621.02
 24.5783  2620.05
 24.6288  2613.65
 24.6793  2610.12
 24.7297  2602.43
 24.7802  2599.48
 24.8307  2595.18
 24.8812  2592.73
 24.9317  2589.7
 24.9822  2586.3
 25.0327  2584.37
 25.0832  2575.09
 25.1337  2573.29
 25.1842  2569.03
 25.2347  2567.15
 25.2852  2561.77
 25.3357  2561.25
 25.3862  2556.64
 25.4367  2553.99
 25.4872  2550.59
 25.5377  2549.06
 25.5882  2545.24
 25.6386  2542.6
 25.6891  2541.63
 25.7396  2540.63
 25.7901  2536.92
 25.8406  2531.18
 25.8911  2535.62
 25.9416  2533.24
 25.9921  2529.56
 26.0426  2529
 26.0931  2528.28
 26.1436  2525.6
 26.1941  2523.29
 26.2446  2523.59
 26.2951  2522.64
 26.3456  2521.08
 26.3961  2516.72
 26.4466  2516.38
 26.4971  2510.29
 26.5476  2508.54
 26.598  2502.86
 26.6485  2501.72
 26.699  2497.59
 26.7495  2496.81
 26.8  2491.61
 26.8505  2489.41
 26.901  2487.56
 26.9515  2482.61
 27.002  2483.07
 27.0525  2478.22
 27.103  2473.33
 27.1535  2470.08
 27.204  2464.82
 27.2545  2466.47
 27.305  2462.93
 27.3555  2457.13
 27.406  2452.58
 27.4565  2454.65
 27.5069  2452.44
 27.5574  2450.03
 27.6079  2447.25
 27.6584  2447.56
 27.7089  2441.15
 27.7594  2438.42
 27.8099  2434.27
 27.8604  2431.67
 27.9109  2427.47
 27.9614  2425.16
 28.0119  2423.5
 28.0624  2422.79
 28.1129  2416.81
 28.1634  2402.35
 28.2139  2385.03
 28.2644  2364.24
 28.3149  2339.82
 28.3654  2313.54
 28.4159  2307.05
 28.4663  2334.43
 28.5168  2343.51
 28.5673  2348.1
 28.6178  2352.44
 28.6683  2351.81
 28.7188  2351.73
 28.7693  2356.64
 28.8198  2355.75
 28.8703  2355.43
 28.9208  2355.51
 28.9713  2360.13
 29.0218  2355.33
 29.0723  2352.82
 29.1228  2353.14
 29.1733  2354.85
 29.2238  2350.64
 29.2743  2350.56
 29.3248  2345
 29.3753  2349.47
 29.4257  2342.45
 29.4762  2329.83
 29.5267  2307.42
 29.5772  2275.5
 29.6277  2300.53
 29.6782  2308.98
 29.7287  2309.61
 29.7792  2314.05
 29.8297  2312.43
 29.8802  2305.44
 29.9307  2304.91
 29.9812  2302.8
 30.0317  2304.4
 30.0822  2304.21
 30.1327  2299.68
 30.1832  2296.06
 30.2337  2298.23
 30.2842  2295.11
 30.3346  2297.5
 30.3851  2294.76
 30.4356  2296.17
 30.4861  2284.65
 30.5366  2294.31
 30.5871  2284.91
 30.6376  2282.56
 30.6881  2283.1
 30.7386  2278.59
 30.7891  2269.28
 30.8396  2277.33
 30.8901  2274.9
 30.9406  2273.76
 30.9911  2272.83
 31.0416  2271.93
 31.0921  2275.03
 31.1426  2268.65
 31.1931  2270.78
 31.2436  2263.65
 31.294  2265.48
 31.3445  2263.42
 31.395  2262.31
 31.4455  2258.49
 31.496  2258.68
 31.5465  2258.07
 31.597  2252.82
 31.6475  2256.55
 31.698  2254.56
 31.7485  2255.38
 31.799  2252.41
 31.8495  2247.73
 31.9  2240.41
 31.9505  2231.58
 32.001  2238.83
 32.0515  2238.15
 32.102  2239.04
 32.1525  2237
 32.203  2233.05
 32.2534  2234.14
 32.3039  2233.25
 32.3544  2229.45
 32.4049  2225.24
 32.4554  2232.08
 32.5059  2226.04
 32.5564  2225.34
 32.6069  2228.46
 32.6574  2227.98
 32.7079  2223.43
 32.7584  2228.69
 32.8089  2229.49
 32.8594  2223.67
 32.9099  2225.32
 32.9604  2231.2
 33.0109  2224.17
 33.0614  2225.5
 33.1119  2227.53
 33.1624  2231.42
 33.2128  2225.35
 33.2633  2226.55
 33.3138  2224.88
 33.3643  2228.89
 33.4148  2224.75
 33.4653  2226.23
 33.5158  2224.83
 33.5663  2224.52
 33.6168  2222.82
 33.6673  2223.2
 33.7178  2218.86
 33.7683  2219.92
 33.8188  2224.54
 33.8693  2222.55
 33.9198  2227.74
 33.9703  2227.4
 34.0208  2238.82
 34.0713  2222.65
 34.1217  2236.26
 34.1722  2236.18
 34.2227  2234.14
 34.2732  2239.63
 34.3237  2236.47
 34.3742  2235.52
 34.4247  2233.16
 34.4752  2230.18
 34.5257  2230.24
 34.5762  2227.71
 34.6267  2220.56
 34.6772  2179.53
 34.7277  2122.42
 34.7782  2097.53
 34.8287  2130.89
 34.8792  2140.66
 34.9297  2140.76
 34.9802  2152.98
 35.0307  2156.11
 35.0811  2157.9
 35.1316  2162.71
 35.1821  2167.79
 35.2326  2167.92
 35.2831  2168.03
 35.3336  2171.01
 35.3841  2162.72
 35.4346  2163.7
 35.4851  2166.91
 35.5356  2168
 35.5861  2158.94
 35.6366  2155.45
 35.6871  2155.94
 35.7376  2161.02
 35.7881  2155.53
 35.8386  2157
 35.8891  2152.36
 35.9396  2155.07
 35.99  2149.32
 36.0405  2145.13
 36.091  2140.54
 36.1415  2145.28
 36.192  2148.61
 36.2425  2145.12
 36.293  2141.96
 36.3435  2138.05
 36.394  2137.66
 36.4445  2132.04
 36.495  2129.93
 36.5455  2129.31
 36.596  2129.22
 36.6465  2130.04
 36.697  2116.81
 36.7475  2128.77
 36.798  2124.02
 36.8485  2122.02
 36.899  2115.85
 36.9494  2117.25
 36.9999  2117.98
 37.0504  2112.67
 37.1009  2114.15
 37.1514  2115.71
 37.2019  2112.18
 37.2524  2115.01
 37.3029  2114.04
 37.3534  2110.63
 37.4039  2103.73
 37.4544  2109.2
 37.5049  2100.84
 37.5554  2104.99
 37.6059  2095.86
 37.6564  2099.59
 37.7069  2097.64
 37.7574  2097.17
 37.8079  2088.99
 37.8583  2091.72
 37.9088  2086.72
 37.9593  2089.87
 38.0098  2088.16
 38.0603  2082.82
 38.1108  2081.14
 38.1613  2084.22
 38.2118  2076.84
 38.2623  2071.8
 38.3128  2074.34
 38.3633  2071.7
 38.4138  2073.55
 38.4643  2068.85
 38.5148  2072.32
 38.5653  2072.39
 38.6158  2030.26
 38.6663  2064.18
 38.7168  2061.54
 38.7673  2058.04
 38.8177  2047.63
 38.8682  2049.09
 38.9187  2051.12
 38.9692  2053.02
 39.0197  2050.27
 39.0702  2053.63
 39.1207  2047.66
 39.1712  2039.77
 39.2217  2045.7
 39.2722  2044.78
 39.3227  2032.49
 39.3732  2021.88
 39.4237  2037.42
 39.4742  2028.68
 39.5247  2019.58
 39.5752  2018.66
 39.6257  2017.69
 39.6762  2012.29
 39.7266  2012.93
 39.7771  2002.56
 39.8276  1991.81
 39.8781  1987.39
 39.9286  1994.99
 39.9791  1988.2
 40.0296  1978.1
 40.0801  1968.21
 40.1306  1957.57
 40.1811  1952.55
 40.2316  1943.34
 40.2821  1931.47
 40.3326  1928.88
 40.3831  1917.3
 40.4336  1912.24
 40.4841  1908.5
 40.5346  1876.41
 40.5851  1869.68
 40.6356  1859.14
 40.686  1836.33
 40.7365  1834.98
 40.787  1788.58
 40.8375  1767.28
 40.888  1747.6
 40.9385  1804.04
 40.989  1853.62
 41.0395  1958.84
 41.09  1968.52
 41.1405  1953.54
 41.191  1906.67
 41.2415  1902.62
 41.292  1887.07
 41.3425  1864.29
 41.393  1826
 41.4435  1806.5
 41.494  1747.54
 41.5445  1720.55
 41.595  1618.48
 41.6454  1548.65
 41.6959  1375.33
 41.7464  1083.22
 41.7969  762.896
 41.8474  527.459
 41.8979  235.568
 41.9484 -2.97277